welcome.started,welcome.stopped,intro_key.keys,intro_key.rt,intro_key.duration,participant,session,date,expName,psychopyVersion,OS,frameRate,instruction.started,instruction.stopped,instruction_key.keys,instruction_key.rt,instruction_key.duration,press_space.started,press_space.stopped,press_space_cont.keys,press_space_cont.rt,press_space_cont.duration,practice_trial.started,practice_trial.stopped,key_pract.keys,key_pract.rt,key_pract.duration,too_slow_practice.keys,practice_trials.thisRepN,practice_trials.thisTrialN,practice_trials.thisN,practice_trials.thisIndex,practice_trials.ran,face,object,too_slow_practice.rt,too_slow_practice.duration,transition.started,transition.stopped,press_space_cont_2.keys,press_space_cont_2.rt,press_space_cont_2.duration,trial.started,trial.stopped,key_resp.keys,key_resp.rt,key_resp.duration,too_slow_resp.keys,trials.thisRepN,trials.thisTrialN,trials.thisN,trials.thisIndex,trials.ran,too_slow_resp.rt,too_slow_resp.duration,end.started,end.stopped,space_to_exit.keys,space_to_exit.rt,space_to_exit.duration
0.0011,11.0033,space,8.9875,,927339,001,2023-10-25_14h54.51.507,psychopy project,2023.2.3,Win32,60.03842459,,,,,,,,,,,,,,,,,,,,,,,,,,,,,,,,,,,,,,,,,,,,,,,,
,,,,,927339,001,2023-10-25_14h54.51.507,psychopy project,2023.2.3,Win32,60.03842459,11.0037,48.6543,space,35.6296,,,,,,,,,,,,,,,,,,,,,,,,,,,,,,,,,,,,,,,,,,,,
,,,,,927339,001,2023-10-25_14h54.51.507,psychopy project,2023.2.3,Win32,60.03842459,,,,,,48.7205,54.303,space,5.557,,54.3032,54.986,q,0.2443,,,0,0,0,0,1,stimuli/b01.bmp,stimuli/g1.bmp,,,,,,,,,,,,,,,,,,,,,,,,,
,,,,,927339,001,2023-10-25_14h54.51.507,psychopy project,2023.2.3,Win32,60.03842459,,,,,,54.9871,59.2019,space,4.1942,,59.202,66.4514,,,,space,0,1,1,3,1,stimuli/b01.bmp,stimuli/t2.bmp,6.3182,,,,,,,,,,,,,,,,,,,,,,,,
,,,,,927339,001,2023-10-25_14h54.51.507,psychopy project,2023.2.3,Win32,60.03842459,,,,,,66.4663,69.1341,space,2.6619,,69.1342,70.0171,p,0.4451,,,0,2,2,6,1,stimuli/w01.bmp,stimuli/g1.bmp,,,,,,,,,,,,,,,,,,,,,,,,,
,,,,,927339,001,2023-10-25_14h54.51.507,psychopy project,2023.2.3,Win32,60.03842459,,,,,,70.018,71.2878,space,1.2507,,71.288,72.0874,p,0.3674,,,0,3,3,7,1,stimuli/w01.bmp,stimuli/g2.bmp,,,,,,,,,,,,,,,,,,,,,,,,,
,,,,,927339,001,2023-10-25_14h54.51.507,psychopy project,2023.2.3,Win32,60.03842459,,,,,,72.0878,72.6667,space,0.5623,,72.6668,75.1664,,,,space,0,4,4,4,1,stimuli/w01.bmp,stimuli/t1.bmp,1.578,,,,,,,,,,,,,,,,,,,,,,,,
,,,,,927339,001,2023-10-25_14h54.51.507,psychopy project,2023.2.3,Win32,60.03842459,,,,,,75.181,76.6166,space,1.4199,,76.6168,77.4495,q,0.3934,,,0,5,5,2,1,stimuli/b01.bmp,stimuli/t1.bmp,,,,,,,,,,,,,,,,,,,,,,,,,
,,,,,927339,001,2023-10-25_14h54.51.507,psychopy project,2023.2.3,Win32,60.03842459,,,,,,77.4501,78.67,space,1.2007,,78.6702,79.4993,q,0.4104,,,0,6,6,5,1,stimuli/w01.bmp,stimuli/t2.bmp,,,,,,,,,,,,,,,,,,,,,,,,,
,,,,,927339,001,2023-10-25_14h54.51.507,psychopy project,2023.2.3,Win32,60.03842459,,,,,,79.5008,80.5324,space,1.0054,,80.5326,81.1529,p,0.184,,,0,7,7,1,1,stimuli/b01.bmp,stimuli/g2.bmp,,,,,,,,,,,,,,,,,,,,,,,,,
,,,,,927339,001,2023-10-25_14h54.51.507,psychopy project,2023.2.3,Win32,60.03842459,,,,,,,,,,,,,,,,,,,,,,,,,,81.1537,81.7824,space,0.6101,,,,,,,,,,,,,,,,,,,
,,,,,927339,001,2023-10-25_14h54.51.507,psychopy project,2023.2.3,Win32,60.03842459,,,,,,81.81,83.1821,space,1.3655,,,,,,,,,,,,,stimuli/w01.bmp,stimuli/g4.bmp,,,,,,,,83.1825,83.9655,p,0.3515,,,0,0,0,42,1,,,,,,,
,,,,,927339,001,2023-10-25_14h54.51.507,psychopy project,2023.2.3,Win32,60.03842459,,,,,,83.9661,84.3321,space,0.3505,,,,,,,,,,,,,stimuli/w03.bmp,stimuli/t2.bmp,,,,,,,,84.3321,85.7651,,,,space,0,1,1,92,1,0.5042,,,,,,
,,,,,927339,001,2023-10-25_14h54.51.507,psychopy project,2023.2.3,Win32,60.03842459,,,,,,85.7655,86.4816,space,0.7019,,,,,,,,,,,,,stimuli/b06.bmp,stimuli/t2.bmp,,,,,,,,86.4817,87.2814,q,0.3674,,,0,2,2,89,1,,,,,,,
,,,,,927339,001,2023-10-25_14h54.51.507,psychopy project,2023.2.3,Win32,60.03842459,,,,,,87.282,87.8982,space,0.6052,,,,,,,,,,,,,stimuli/w01.bmp,stimuli/g3.bmp,,,,,,,,87.8983,88.5147,p,0.1849,,,0,3,3,30,1,,,,,,,
,,,,,927339,001,2023-10-25_14h54.51.507,psychopy project,2023.2.3,Win32,60.03842459,,,,,,88.515,88.8981,space,0.3675,,,,,,,,,,,,,stimuli/w02.bmp,stimuli/g5.bmp,,,,,,,,88.8982,89.5811,p,0.2776,,,0,4,4,55,1,,,,,,,
,,,,,927339,001,2023-10-25_14h54.51.507,psychopy project,2023.2.3,Win32,60.03842459,,,,,,89.5816,90.0145,space,0.4175,,,,,,,,,,,,,stimuli/b01.bmp,stimuli/g6.bmp,,,,,,,,90.0146,90.6474,p,0.2104,,,0,5,5,60,1,,,,,,,
,,,,,927339,001,2023-10-25_14h54.51.507,psychopy project,2023.2.3,Win32,60.03842459,,,,,,90.6481,90.9812,space,0.319,,,,,,,,,,,,,stimuli/b01.bmp,stimuli/t1.bmp,,,,,,,,90.9813,91.6142,q,0.2007,,,0,6,6,72,1,,,,,,,
,,,,,927339,001,2023-10-25_14h54.51.507,psychopy project,2023.2.3,Win32,60.03842459,,,,,,91.6146,91.9653,space,0.3447,,,,,,,,,,,,,stimuli/w04.bmp,stimuli/g5.bmp,,,,,,,,91.9653,92.5473,p,0.1508,,,0,7,7,57,1,,,,,,,
,,,,,927339,001,2023-10-25_14h54.51.507,psychopy project,2023.2.3,Win32,60.03842459,,,,,,92.5479,93.0145,space,0.4558,,,,,,,,,,,,,stimuli/b03.bmp,stimuli/t2.bmp,,,,,,,,93.0146,93.6144,q,0.1738,,,0,8,8,86,1,,,,,,,
,,,,,927339,001,2023-10-25_14h54.51.507,psychopy project,2023.2.3,Win32,60.03842459,,,,,,93.6149,94.048,space,0.419,,,,,,,,,,,,,stimuli/b01.bmp,stimuli/g1.bmp,,,,,,,,94.048,94.5976,p,0.1172,,,0,9,9,0,1,,,,,,,
,,,,,927339,001,2023-10-25_14h54.51.507,psychopy project,2023.2.3,Win32,60.03842459,,,,,,94.5982,94.9805,space,0.369,,,,,,,,,,,,,stimuli/w01.bmp,stimuli/g2.bmp,,,,,,,,94.9806,95.5469,q,0.1397,,,0,10,10,18,1,,,,,,,
,,,,,927339,001,2023-10-25_14h54.51.507,psychopy project,2023.2.3,Win32,60.03842459,,,,,,95.5474,96.1804,space,0.6208,,,,,,,,,,,,,stimuli/w04.bmp,stimuli/t5.bmp,,,,,,,,96.1804,96.9968,p,0.3852,,,0,11,11,129,1,,,,,,,
,,,,,927339,001,2023-10-25_14h54.51.507,psychopy project,2023.2.3,Win32,60.03842459,,,,,,96.9974,98.6301,space,1.6171,,,,,,,,,,,,,stimuli/b06.bmp,stimuli/t5.bmp,,,,,,,,98.6302,99.4633,q,0.4031,,,0,12,12,125,1,,,,,,,
,,,,,927339,001,2023-10-25_14h54.51.507,psychopy project,2023.2.3,Win32,60.03842459,,,,,,99.4637,100.9463,space,1.4773,,,,,,,,,,,,,stimuli/w02.bmp,stimuli/t6.bmp,,,,,,,,100.9464,102.8295,,,,space,0,13,13,139,1,0.951,,,,,,
,,,,,927339,001,2023-10-25_14h54.51.507,psychopy project,2023.2.3,Win32,60.03842459,,,,,,102.8299,103.7126,space,0.8756,,,,,,,,,,,,,stimuli/b03.bmp,stimuli/t5.bmp,,,,,,,,103.7127,104.5956,q,0.4601,,,0,14,14,122,1,,,,,,,
,,,,,927339,001,2023-10-25_14h54.51.507,psychopy project,2023.2.3,Win32,60.03842459,,,,,,104.5961,104.8125,space,0.2009,,,,,,,,,,,,,stimuli/w06.bmp,stimuli/t2.bmp,,,,,,,,104.8126,105.6456,q,0.416,,,0,15,15,95,1,,,,,,,
,,,,,927339,001,2023-10-25_14h54.51.507,psychopy project,2023.2.3,Win32,60.03842459,,,,,,105.646,105.979,space,0.3223,,,,,,,,,,,,,stimuli/b01.bmp,stimuli/g5.bmp,,,,,,,,105.9791,106.7122,p,0.3067,,,0,16,16,48,1,,,,,,,
,,,,,927339,001,2023-10-25_14h54.51.507,psychopy project,2023.2.3,Win32,60.03842459,,,,,,106.7128,107.0956,space,0.3734,,,,,,,,,,,,,stimuli/b03.bmp,stimuli/t4.bmp,,,,,,,,107.0956,107.8622,q,0.3348,,,0,17,17,110,1,,,,,,,
,,,,,927339,001,2023-10-25_14h54.51.507,psychopy project,2023.2.3,Win32,60.03842459,,,,,,107.8626,108.196,space,0.3268,,,,,,,,,,,,,stimuli/w03.bmp,stimuli/t1.bmp,,,,,,,,108.196,108.9621,q,0.3451,,,0,18,18,80,1,,,,,,,
,,,,,927339,001,2023-10-25_14h54.51.507,psychopy project,2023.2.3,Win32,60.03842459,,,,,,108.9626,109.2457,space,0.2714,,,,,,,,,,,,,stimuli/w01.bmp,stimuli/g1.bmp,,,,,,,,109.2459,110.0118,p,0.3379,,,0,19,19,6,1,,,,,,,
,,,,,927339,001,2023-10-25_14h54.51.507,psychopy project,2023.2.3,Win32,60.03842459,,,,,,110.0123,110.3125,space,0.2863,,,,,,,,,,,,,stimuli/w06.bmp,stimuli/t6.bmp,,,,,,,,110.3126,111.1949,q,0.4542,,,0,20,20,143,1,,,,,,,
,,,,,927339,001,2023-10-25_14h54.51.507,psychopy project,2023.2.3,Win32,60.03842459,,,,,,111.1954,111.4126,space,0.2126,,,,,,,,,,,,,stimuli/b02.bmp,stimuli/g2.bmp,,,,,,,,111.4126,112.2115,p,0.3766,,,0,21,21,13,1,,,,,,,
,,,,,927339,001,2023-10-25_14h54.51.507,psychopy project,2023.2.3,Win32,60.03842459,,,,,,112.2119,112.5282,space,0.3022,,,,,,,,,,,,,stimuli/b06.bmp,stimuli/g2.bmp,,,,,,,,112.5282,113.1946,p,0.2357,,,0,22,22,17,1,,,,,,,
,,,,,927339,001,2023-10-25_14h54.51.507,psychopy project,2023.2.3,Win32,60.03842459,,,,,,113.195,113.5285,space,0.3263,,,,,,,,,,,,,stimuli/w05.bmp,stimuli/g3.bmp,,,,,,,,113.5285,114.1616,p,0.2109,,,0,23,23,34,1,,,,,,,
,,,,,927339,001,2023-10-25_14h54.51.507,psychopy project,2023.2.3,Win32,60.03842459,,,,,,114.1622,114.528,space,0.3604,,,,,,,,,,,,,stimuli/b05.bmp,stimuli/t4.bmp,,,,,,,,114.528,115.1444,p,0.1845,,,0,24,24,112,1,,,,,,,
,,,,,927339,001,2023-10-25_14h54.51.507,psychopy project,2023.2.3,Win32,60.03842459,,,,,,115.1448,115.6943,space,0.5425,,,,,,,,,,,,,stimuli/w04.bmp,stimuli/t4.bmp,,,,,,,,115.6944,116.4277,p,0.3039,,,0,25,25,117,1,,,,,,,
,,,,,927339,001,2023-10-25_14h54.51.507,psychopy project,2023.2.3,Win32,60.03842459,,,,,,116.4281,116.944,space,0.5097,,,,,,,,,,,,,stimuli/b04.bmp,stimuli/g6.bmp,,,,,,,,116.9441,117.794,p,0.4181,,,0,26,26,63,1,,,,,,,
,,,,,927339,001,2023-10-25_14h54.51.507,psychopy project,2023.2.3,Win32,60.03842459,,,,,,117.7944,118.4117,space,0.613,,,,,,,,,,,,,stimuli/w06.bmp,stimuli/g3.bmp,,,,,,,,118.4117,119.2606,p,0.4171,,,0,27,27,35,1,,,,,,,
,,,,,927339,001,2023-10-25_14h54.51.507,psychopy project,2023.2.3,Win32,60.03842459,,,,,,119.261,119.7941,space,0.52,,,,,,,,,,,,,stimuli/b05.bmp,stimuli/t2.bmp,,,,,,,,119.7941,120.4477,q,0.2205,,,0,28,28,88,1,,,,,,,
,,,,,927339,001,2023-10-25_14h54.51.507,psychopy project,2023.2.3,Win32,60.03842459,,,,,,120.4481,122.0936,space,1.6303,,,,,,,,,,,,,stimuli/b05.bmp,stimuli/t1.bmp,,,,,,,,122.0937,122.9099,q,0.3852,,,0,29,29,76,1,,,,,,,
,,,,,927339,001,2023-10-25_14h54.51.507,psychopy project,2023.2.3,Win32,60.03842459,,,,,,122.9103,123.3435,space,0.4172,,,,,,,,,,,,,stimuli/w05.bmp,stimuli/t5.bmp,,,,,,,,123.3435,124.0937,p,0.3172,,,0,30,30,130,1,,,,,,,
,,,,,927339,001,2023-10-25_14h54.51.507,psychopy project,2023.2.3,Win32,60.03842459,,,,,,124.0942,124.7266,space,0.6277,,,,,,,,,,,,,stimuli/b01.bmp,stimuli/t6.bmp,,,,,,,,124.7267,125.5431,q,0.3935,,,0,31,31,132,1,,,,,,,
,,,,,927339,001,2023-10-25_14h54.51.507,psychopy project,2023.2.3,Win32,60.03842459,,,,,,125.5436,125.9431,space,0.3896,,,,,,,,,,,,,stimuli/b06.bmp,stimuli/t4.bmp,,,,,,,,125.9432,126.6761,q,0.3055,,,0,32,32,113,1,,,,,,,
,,,,,927339,001,2023-10-25_14h54.51.507,psychopy project,2023.2.3,Win32,60.03842459,,,,,,126.6765,127.0429,space,0.3554,,,,,,,,,,,,,stimuli/w01.bmp,stimuli/g6.bmp,,,,,,,,127.043,127.8624,p,0.385,,,0,33,33,66,1,,,,,,,
,,,,,927339,001,2023-10-25_14h54.51.507,psychopy project,2023.2.3,Win32,60.03842459,,,,,,127.8628,128.2761,space,0.4057,,,,,,,,,,,,,stimuli/w05.bmp,stimuli/t4.bmp,,,,,,,,128.2762,129.9264,,,,space,0,34,34,118,1,0.7272,,,,,,
,,,,,927339,001,2023-10-25_14h54.51.507,psychopy project,2023.2.3,Win32,60.03842459,,,,,,129.9269,130.5772,space,0.6448,,,,,,,,,,,,,stimuli/w01.bmp,stimuli/t2.bmp,,,,,,,,130.5772,131.2755,q,0.2738,,,0,35,35,90,1,,,,,,,
,,,,,927339,001,2023-10-25_14h54.51.507,psychopy project,2023.2.3,Win32,60.03842459,,,,,,131.2761,131.5923,space,0.3107,,,,,,,,,,,,,stimuli/b04.bmp,stimuli/g1.bmp,,,,,,,,131.5923,132.3097,p,0.2961,,,0,36,36,3,1,,,,,,,
,,,,,927339,001,2023-10-25_14h54.51.507,psychopy project,2023.2.3,Win32,60.03842459,,,,,,132.3103,132.6755,space,0.3498,,,,,,,,,,,,,stimuli/w01.bmp,stimuli/t1.bmp,,,,,,,,132.6757,133.3922,q,0.2842,,,0,37,37,78,1,,,,,,,
,,,,,927339,001,2023-10-25_14h54.51.507,psychopy project,2023.2.3,Win32,60.03842459,,,,,,133.3926,133.7088,space,0.3006,,,,,,,,,,,,,stimuli/b01.bmp,stimuli/g3.bmp,,,,,,,,133.7089,134.4254,p,0.294,,,0,38,38,24,1,,,,,,,
,,,,,927339,001,2023-10-25_14h54.51.507,psychopy project,2023.2.3,Win32,60.03842459,,,,,,134.4258,134.9086,space,0.4698,,,,,,,,,,,,,stimuli/w05.bmp,stimuli/g6.bmp,,,,,,,,134.9087,135.5084,q,0.1697,,,0,39,39,70,1,,,,,,,
,,,,,927339,001,2023-10-25_14h54.51.507,psychopy project,2023.2.3,Win32,60.03842459,,,,,,135.5089,136.1416,space,0.6175,,,,,,,,,,,,,stimuli/w04.bmp,stimuli/t6.bmp,,,,,,,,136.1416,136.8913,q,0.3263,,,0,40,40,141,1,,,,,,,
,,,,,927339,001,2023-10-25_14h54.51.507,psychopy project,2023.2.3,Win32,60.03842459,,,,,,136.8919,137.3415,space,0.434,,,,,,,,,,,,,stimuli/w05.bmp,stimuli/t2.bmp,,,,,,,,137.3415,138.1081,q,0.3429,,,0,41,41,94,1,,,,,,,
,,,,,927339,001,2023-10-25_14h54.51.507,psychopy project,2023.2.3,Win32,60.03842459,,,,,,138.1085,138.4748,space,0.3586,,,,,,,,,,,,,stimuli/b02.bmp,stimuli/t2.bmp,,,,,,,,138.4749,139.1425,q,0.2467,,,0,42,42,85,1,,,,,,,
,,,,,927339,001,2023-10-25_14h54.51.507,psychopy project,2023.2.3,Win32,60.03842459,,,,,,139.1433,139.5914,space,0.4326,,,,,,,,,,,,,stimuli/w03.bmp,stimuli/g2.bmp,,,,,,,,139.5914,140.2751,p,0.2547,,,0,43,43,20,1,,,,,,,
,,,,,927339,001,2023-10-25_14h54.51.507,psychopy project,2023.2.3,Win32,60.03842459,,,,,,140.2755,140.7416,space,0.4579,,,,,,,,,,,,,stimuli/b04.bmp,stimuli/t4.bmp,,,,,,,,140.7417,141.4578,q,0.2844,,,0,44,44,111,1,,,,,,,
,,,,,927339,001,2023-10-25_14h54.51.507,psychopy project,2023.2.3,Win32,60.03842459,,,,,,141.4583,141.7918,space,0.3291,,,,,,,,,,,,,stimuli/w05.bmp,stimuli/g4.bmp,,,,,,,,141.7919,142.5573,p,0.3344,,,0,45,45,46,1,,,,,,,
,,,,,927339,001,2023-10-25_14h54.51.507,psychopy project,2023.2.3,Win32,60.03842459,,,,,,142.5578,142.9579,space,0.388,,,,,,,,,,,,,stimuli/w02.bmp,stimuli/t4.bmp,,,,,,,,142.9579,143.7407,q,0.3527,,,0,46,46,115,1,,,,,,,
,,,,,927339,001,2023-10-25_14h54.51.507,psychopy project,2023.2.3,Win32,60.03842459,,,,,,143.7414,144.1073,space,0.356,,,,,,,,,,,,,stimuli/b02.bmp,stimuli/g6.bmp,,,,,,,,144.1073,144.7403,p,0.2113,,,0,47,47,61,1,,,,,,,
,,,,,927339,001,2023-10-25_14h54.51.507,psychopy project,2023.2.3,Win32,60.03842459,,,,,,144.7407,145.1073,space,0.3551,,,,,,,,,,,,,stimuli/w04.bmp,stimuli/t1.bmp,,,,,,,,145.1073,145.8569,q,0.3205,,,0,48,48,81,1,,,,,,,
,,,,,927339,001,2023-10-25_14h54.51.507,psychopy project,2023.2.3,Win32,60.03842459,,,,,,145.8573,146.1737,space,0.3061,,,,,,,,,,,,,stimuli/w03.bmp,stimuli/g6.bmp,,,,,,,,146.1738,146.7402,p,0.1452,,,0,49,49,68,1,,,,,,,
,,,,,927339,001,2023-10-25_14h54.51.507,psychopy project,2023.2.3,Win32,60.03842459,,,,,,146.7406,147.2237,space,0.4679,,,,,,,,,,,,,stimuli/b02.bmp,stimuli/g5.bmp,,,,,,,,147.2237,147.9231,p,0.2774,,,0,50,50,49,1,,,,,,,
,,,,,927339,001,2023-10-25_14h54.51.507,psychopy project,2023.2.3,Win32,60.03842459,,,,,,147.9239,148.4238,space,0.4843,,,,,,,,,,,,,stimuli/w04.bmp,stimuli/g3.bmp,,,,,,,,148.4238,148.9566,q,0.1097,,,0,51,51,33,1,,,,,,,
,,,,,927339,001,2023-10-25_14h54.51.507,psychopy project,2023.2.3,Win32,60.03842459,,,,,,148.957,149.5565,space,0.5859,,,,,,,,,,,,,stimuli/w02.bmp,stimuli/g2.bmp,,,,,,,,149.5566,150.1897,p,0.205,,,0,52,52,19,1,,,,,,,
,,,,,927339,001,2023-10-25_14h54.51.507,psychopy project,2023.2.3,Win32,60.03842459,,,,,,150.1902,150.5566,space,0.3607,,,,,,,,,,,,,stimuli/w02.bmp,stimuli/g3.bmp,,,,,,,,150.5566,151.2228,p,0.2395,,,0,53,53,31,1,,,,,,,
,,,,,927339,001,2023-10-25_14h54.51.507,psychopy project,2023.2.3,Win32,60.03842459,,,,,,151.2233,151.6234,space,0.3922,,,,,,,,,,,,,stimuli/w06.bmp,stimuli/t4.bmp,,,,,,,,151.6235,152.2561,q,0.2049,,,0,54,54,119,1,,,,,,,
,,,,,927339,001,2023-10-25_14h54.51.507,psychopy project,2023.2.3,Win32,60.03842459,,,,,,152.2566,152.623,space,0.3568,,,,,,,,,,,,,stimuli/b02.bmp,stimuli/g4.bmp,,,,,,,,152.623,153.2726,p,0.2188,,,0,55,55,37,1,,,,,,,
,,,,,927339,001,2023-10-25_14h54.51.507,psychopy project,2023.2.3,Win32,60.03842459,,,,,,153.273,153.6726,space,0.3863,,,,,,,,,,,,,stimuli/w02.bmp,stimuli/g6.bmp,,,,,,,,153.6727,154.5071,p,0.4135,,,0,56,56,67,1,,,,,,,
,,,,,927339,001,2023-10-25_14h54.51.507,psychopy project,2023.2.3,Win32,60.03842459,,,,,,154.5079,155.0893,space,0.5681,,,,,,,,,,,,,stimuli/w02.bmp,stimuli/g1.bmp,,,,,,,,155.0893,155.7567,p,0.2462,,,0,57,57,7,1,,,,,,,
,,,,,927339,001,2023-10-25_14h54.51.507,psychopy project,2023.2.3,Win32,60.03842459,,,,,,155.7574,156.1723,space,0.4089,,,,,,,,,,,,,stimuli/w06.bmp,stimuli/g4.bmp,,,,,,,,156.1724,156.7887,p,0.1945,,,0,58,58,47,1,,,,,,,
,,,,,927339,001,2023-10-25_14h54.51.507,psychopy project,2023.2.3,Win32,60.03842459,,,,,,156.789,157.2721,space,0.4687,,,,,,,,,,,,,stimuli/w03.bmp,stimuli/g1.bmp,,,,,,,,157.2721,157.8557,p,0.1681,,,0,59,59,8,1,,,,,,,
,,,,,927339,001,2023-10-25_14h54.51.507,psychopy project,2023.2.3,Win32,60.03842459,,,,,,157.8561,158.272,space,0.4014,,,,,,,,,,,,,stimuli/b03.bmp,stimuli/g1.bmp,,,,,,,,158.2721,158.8052,q,0.1083,,,0,60,60,2,1,,,,,,,
,,,,,927339,001,2023-10-25_14h54.51.507,psychopy project,2023.2.3,Win32,60.03842459,,,,,,158.8056,159.3553,space,0.5429,,,,,,,,,,,,,stimuli/b04.bmp,stimuli/g3.bmp,,,,,,,,159.3554,159.9885,p,0.2115,,,0,61,61,27,1,,,,,,,
,,,,,927339,001,2023-10-25_14h54.51.507,psychopy project,2023.2.3,Win32,60.03842459,,,,,,159.9889,160.5384,space,0.54,,,,,,,,,,,,,stimuli/b06.bmp,stimuli/g4.bmp,,,,,,,,160.5384,161.1217,p,0.1543,,,0,62,62,41,1,,,,,,,
,,,,,927339,001,2023-10-25_14h54.51.507,psychopy project,2023.2.3,Win32,60.03842459,,,,,,161.1222,161.5215,space,0.3938,,,,,,,,,,,,,stimuli/w04.bmp,stimuli/t3.bmp,,,,,,,,161.5215,162.3219,q,0.383,,,0,63,63,105,1,,,,,,,
,,,,,927339,001,2023-10-25_14h54.51.507,psychopy project,2023.2.3,Win32,60.03842459,,,,,,162.3224,162.6715,space,0.341,,,,,,,,,,,,,stimuli/b01.bmp,stimuli/t4.bmp,,,,,,,,162.6715,163.4378,q,0.3391,,,0,64,64,108,1,,,,,,,
,,,,,927339,001,2023-10-25_14h54.51.507,psychopy project,2023.2.3,Win32,60.03842459,,,,,,163.4382,163.8547,space,0.4048,,,,,,,,,,,,,stimuli/b02.bmp,stimuli/t1.bmp,,,,,,,,163.8547,164.5557,q,0.2794,,,0,65,65,73,1,,,,,,,
,,,,,927339,001,2023-10-25_14h54.51.507,psychopy project,2023.2.3,Win32,60.03842459,,,,,,164.5562,164.8546,space,0.2855,,,,,,,,,,,,,stimuli/w02.bmp,stimuli/t5.bmp,,,,,,,,164.8546,165.7042,q,0.4174,,,0,66,66,127,1,,,,,,,
,,,,,927339,001,2023-10-25_14h54.51.507,psychopy project,2023.2.3,Win32,60.03842459,,,,,,165.7047,165.973,space,0.2635,,,,,,,,,,,,,stimuli/b01.bmp,stimuli/g2.bmp,,,,,,,,165.9731,166.6212,p,0.2224,,,0,67,67,12,1,,,,,,,
,,,,,927339,001,2023-10-25_14h54.51.507,psychopy project,2023.2.3,Win32,60.03842459,,,,,,166.6216,167.1042,space,0.4668,,,,,,,,,,,,,stimuli/w03.bmp,stimuli/g4.bmp,,,,,,,,167.1042,167.7875,p,0.2553,,,0,68,68,44,1,,,,,,,
,,,,,927339,001,2023-10-25_14h54.51.507,psychopy project,2023.2.3,Win32,60.03842459,,,,,,167.788,168.2042,space,0.4031,,,,,,,,,,,,,stimuli/b04.bmp,stimuli/t6.bmp,,,,,,,,168.2042,168.7886,p,0.1518,,,0,69,69,135,1,,,,,,,
,,,,,927339,001,2023-10-25_14h54.51.507,psychopy project,2023.2.3,Win32,60.03842459,,,,,,168.7892,169.3209,space,0.5193,,,,,,,,,,,,,stimuli/b05.bmp,stimuli/g2.bmp,,,,,,,,169.3209,170.0537,p,0.3105,,,0,70,70,16,1,,,,,,,
,,,,,927339,001,2023-10-25_14h54.51.507,psychopy project,2023.2.3,Win32,60.03842459,,,,,,170.054,170.5371,space,0.4676,,,,,,,,,,,,,stimuli/b05.bmp,stimuli/g5.bmp,,,,,,,,170.5372,171.2536,p,0.3006,,,0,71,71,52,1,,,,,,,
,,,,,927339,001,2023-10-25_14h54.51.507,psychopy project,2023.2.3,Win32,60.03842459,,,,,,171.254,171.7202,space,0.4534,,,,,,,,,,,,,stimuli/b03.bmp,stimuli/g6.bmp,,,,,,,,171.7203,172.4034,p,0.2509,,,0,72,72,62,1,,,,,,,
,,,,,927339,001,2023-10-25_14h54.51.507,psychopy project,2023.2.3,Win32,60.03842459,,,,,,172.4038,172.8202,space,0.401,,,,,,,,,,,,,stimuli/b04.bmp,stimuli/t5.bmp,,,,,,,,172.8202,173.4867,q,0.2388,,,0,73,73,123,1,,,,,,,
,,,,,927339,001,2023-10-25_14h54.51.507,psychopy project,2023.2.3,Win32,60.03842459,,,,,,173.4871,173.82,space,0.3193,,,,,,,,,,,,,stimuli/b01.bmp,stimuli/t3.bmp,,,,,,,,173.82,174.5532,q,0.3073,,,0,74,74,96,1,,,,,,,
,,,,,927339,001,2023-10-25_14h54.51.507,psychopy project,2023.2.3,Win32,60.03842459,,,,,,174.5536,174.8866,space,0.3273,,,,,,,,,,,,,stimuli/w05.bmp,stimuli/g1.bmp,,,,,,,,174.8866,175.6031,p,0.2928,,,0,75,75,10,1,,,,,,,
,,,,,927339,001,2023-10-25_14h54.51.507,psychopy project,2023.2.3,Win32,60.03842459,,,,,,175.6036,176.2864,space,0.6673,,,,,,,,,,,,,stimuli/w06.bmp,stimuli/t5.bmp,,,,,,,,176.2865,177.1193,q,0.4048,,,0,76,76,131,1,,,,,,,
,,,,,927339,001,2023-10-25_14h54.51.507,psychopy project,2023.2.3,Win32,60.03842459,,,,,,177.1198,177.604,space,0.4793,,,,,,,,,,,,,stimuli/w06.bmp,stimuli/g2.bmp,,,,,,,,177.6041,178.2526,p,0.2174,,,0,77,77,23,1,,,,,,,
,,,,,927339,001,2023-10-25_14h54.51.507,psychopy project,2023.2.3,Win32,60.03842459,,,,,,178.253,178.7192,space,0.4599,,,,,,,,,,,,,stimuli/b03.bmp,stimuli/t6.bmp,,,,,,,,178.7192,179.4032,q,0.2626,,,0,78,78,134,1,,,,,,,
,,,,,927339,001,2023-10-25_14h54.51.507,psychopy project,2023.2.3,Win32,60.03842459,,,,,,179.4037,179.7538,space,0.3459,,,,,,,,,,,,,stimuli/w03.bmp,stimuli/g5.bmp,,,,,,,,179.7539,180.5025,p,0.3185,,,0,79,79,56,1,,,,,,,
,,,,,927339,001,2023-10-25_14h54.51.507,psychopy project,2023.2.3,Win32,60.03842459,,,,,,180.5029,180.9857,space,0.4687,,,,,,,,,,,,,stimuli/w02.bmp,stimuli/t3.bmp,,,,,,,,180.9858,181.7189,q,0.3046,,,0,80,80,103,1,,,,,,,
,,,,,927339,001,2023-10-25_14h54.51.507,psychopy project,2023.2.3,Win32,60.03842459,,,,,,181.7193,182.5022,space,0.7737,,,,,,,,,,,,,stimuli/w01.bmp,stimuli/g5.bmp,,,,,,,,182.5023,183.3354,p,0.4042,,,0,81,81,54,1,,,,,,,
,,,,,927339,001,2023-10-25_14h54.51.507,psychopy project,2023.2.3,Win32,60.03842459,,,,,,183.3358,183.8354,space,0.49,,,,,,,,,,,,,stimuli/b01.bmp,stimuli/g4.bmp,,,,,,,,183.8355,184.5851,p,0.3173,,,0,82,82,36,1,,,,,,,
,,,,,927339,001,2023-10-25_14h54.51.507,psychopy project,2023.2.3,Win32,60.03842459,,,,,,184.5856,185.0686,space,0.4685,,,,,,,,,,,,,stimuli/w06.bmp,stimuli/t1.bmp,,,,,,,,185.0686,185.835,q,0.3339,,,0,83,83,83,1,,,,,,,
,,,,,927339,001,2023-10-25_14h54.51.507,psychopy project,2023.2.3,Win32,60.03842459,,,,,,185.8354,186.235,space,0.3886,,,,,,,,,,,,,stimuli/w03.bmp,stimuli/t5.bmp,,,,,,,,186.235,187.0513,q,0.384,,,0,84,84,128,1,,,,,,,
,,,,,927339,001,2023-10-25_14h54.51.507,psychopy project,2023.2.3,Win32,60.03842459,,,,,,187.0518,187.4688,space,0.4128,,,,,,,,,,,,,stimuli/w05.bmp,stimuli/t1.bmp,,,,,,,,187.4688,188.2012,q,0.3005,,,0,85,85,82,1,,,,,,,
,,,,,927339,001,2023-10-25_14h54.51.507,psychopy project,2023.2.3,Win32,60.03842459,,,,,,188.2016,188.7013,space,0.4842,,,,,,,,,,,,,stimuli/w03.bmp,stimuli/t4.bmp,,,,,,,,188.7014,189.4345,q,0.3005,,,0,86,86,116,1,,,,,,,
,,,,,927339,001,2023-10-25_14h54.51.507,psychopy project,2023.2.3,Win32,60.03842459,,,,,,189.435,190.1515,space,0.7029,,,,,,,,,,,,,stimuli/b02.bmp,stimuli/t4.bmp,,,,,,,,190.1516,190.901,q,0.3175,,,0,87,87,109,1,,,,,,,
,,,,,927339,001,2023-10-25_14h54.51.507,psychopy project,2023.2.3,Win32,60.03842459,,,,,,190.9014,191.3177,space,0.4016,,,,,,,,,,,,,stimuli/b04.bmp,stimuli/g2.bmp,,,,,,,,191.3177,192.1009,p,0.3577,,,0,88,88,15,1,,,,,,,
,,,,,927339,001,2023-10-25_14h54.51.507,psychopy project,2023.2.3,Win32,60.03842459,,,,,,192.1015,192.6679,space,0.5605,,,,,,,,,,,,,stimuli/b04.bmp,stimuli/g4.bmp,,,,,,,,192.668,193.3673,p,0.268,,,0,89,89,39,1,,,,,,,
,,,,,927339,001,2023-10-25_14h54.51.507,psychopy project,2023.2.3,Win32,60.03842459,,,,,,193.3679,193.8021,space,0.4295,,,,,,,,,,,,,stimuli/w01.bmp,stimuli/t4.bmp,,,,,,,,193.8022,194.5505,q,0.318,,,0,90,90,114,1,,,,,,,
,,,,,927339,001,2023-10-25_14h54.51.507,psychopy project,2023.2.3,Win32,60.03842459,,,,,,194.551,195.0005,space,0.4343,,,,,,,,,,,,,stimuli/b02.bmp,stimuli/g1.bmp,,,,,,,,195.0006,195.6171,p,0.1919,,,0,91,91,1,1,,,,,,,
,,,,,927339,001,2023-10-25_14h54.51.507,psychopy project,2023.2.3,Win32,60.03842459,,,,,,195.6176,196.0849,space,0.4627,,,,,,,,,,,,,stimuli/b03.bmp,stimuli/t1.bmp,,,,,,,,196.085,196.8168,p,0.3007,,,0,92,92,74,1,,,,,,,
,,,,,927339,001,2023-10-25_14h54.51.507,psychopy project,2023.2.3,Win32,60.03842459,,,,,,196.8173,197.3841,space,0.5507,,,,,,,,,,,,,stimuli/w06.bmp,stimuli/t3.bmp,,,,,,,,197.3842,198.1835,q,0.3673,,,0,93,93,107,1,,,,,,,
,,,,,927339,001,2023-10-25_14h54.51.507,psychopy project,2023.2.3,Win32,60.03842459,,,,,,198.1841,198.5335,space,0.3402,,,,,,,,,,,,,stimuli/b04.bmp,stimuli/t3.bmp,,,,,,,,198.5335,199.368,q,0.4067,,,0,94,94,99,1,,,,,,,
,,,,,927339,001,2023-10-25_14h54.51.507,psychopy project,2023.2.3,Win32,60.03842459,,,,,,199.3686,199.7166,space,0.335,,,,,,,,,,,,,stimuli/b03.bmp,stimuli/g5.bmp,,,,,,,,199.7167,200.4829,p,0.3415,,,0,95,95,50,1,,,,,,,
,,,,,927339,001,2023-10-25_14h54.51.507,psychopy project,2023.2.3,Win32,60.03842459,,,,,,200.4834,200.9509,space,0.4633,,,,,,,,,,,,,stimuli/b05.bmp,stimuli/t3.bmp,,,,,,,,200.951,202.883,,,,space,0,96,96,100,1,1.0025,,,,,,
,,,,,927339,001,2023-10-25_14h54.51.507,psychopy project,2023.2.3,Win32,60.03842459,,,,,,202.8834,203.5161,space,0.617,,,,,,,,,,,,,stimuli/b05.bmp,stimuli/t5.bmp,,,,,,,,203.5162,204.2492,q,0.3006,,,0,97,97,124,1,,,,,,,
,,,,,927339,001,2023-10-25_14h54.51.507,psychopy project,2023.2.3,Win32,60.03842459,,,,,,204.2497,204.7826,space,0.517,,,,,,,,,,,,,stimuli/b03.bmp,stimuli/g4.bmp,,,,,,,,204.7826,206.1491,,,,space,0,98,98,38,1,0.4345,,,,,,
,,,,,927339,001,2023-10-25_14h54.51.507,psychopy project,2023.2.3,Win32,60.03842459,,,,,,206.1496,206.7654,space,0.6097,,,,,,,,,,,,,stimuli/w04.bmp,stimuli/g2.bmp,,,,,,,,206.7654,207.4821,p,0.2852,,,0,99,99,21,1,,,,,,,
,,,,,927339,001,2023-10-25_14h54.51.507,psychopy project,2023.2.3,Win32,60.03842459,,,,,,207.4826,207.85,space,0.3606,,,,,,,,,,,,,stimuli/w03.bmp,stimuli/t3.bmp,,,,,,,,207.85,208.5986,q,0.3176,,,0,100,100,104,1,,,,,,,
,,,,,927339,001,2023-10-25_14h54.51.507,psychopy project,2023.2.3,Win32,60.03842459,,,,,,208.599,208.9154,space,0.3059,,,,,,,,,,,,,stimuli/w04.bmp,stimuli/g1.bmp,,,,,,,,208.9154,209.5984,p,0.2527,,,0,101,101,9,1,,,,,,,
,,,,,927339,001,2023-10-25_14h54.51.507,psychopy project,2023.2.3,Win32,60.03842459,,,,,,209.5989,209.9163,space,0.3127,,,,,,,,,,,,,stimuli/w03.bmp,stimuli/t6.bmp,,,,,,,,209.9163,210.6321,q,0.2917,,,0,102,102,140,1,,,,,,,
,,,,,927339,001,2023-10-25_14h54.51.507,psychopy project,2023.2.3,Win32,60.03842459,,,,,,210.6326,210.9487,space,0.3023,,,,,,,,,,,,,stimuli/b05.bmp,stimuli/g3.bmp,,,,,,,,210.9487,211.6816,p,0.3014,,,0,103,103,28,1,,,,,,,
,,,,,927339,001,2023-10-25_14h54.51.507,psychopy project,2023.2.3,Win32,60.03842459,,,,,,211.682,212.115,space,0.4185,,,,,,,,,,,,,stimuli/b05.bmp,stimuli/g1.bmp,,,,,,,,212.1151,212.7314,q,0.1919,,,0,104,104,4,1,,,,,,,
,,,,,927339,001,2023-10-25_14h54.51.507,psychopy project,2023.2.3,Win32,60.03842459,,,,,,212.7318,213.2314,space,0.4891,,,,,,,,,,,,,stimuli/b01.bmp,stimuli/t2.bmp,,,,,,,,213.2315,213.9312,q,0.2737,,,0,105,105,84,1,,,,,,,
,,,,,927339,001,2023-10-25_14h54.51.507,psychopy project,2023.2.3,Win32,60.03842459,,,,,,213.9316,214.2646,space,0.3274,,,,,,,,,,,,,stimuli/b06.bmp,stimuli/g3.bmp,,,,,,,,214.2648,214.9652,p,0.2674,,,0,106,106,29,1,,,,,,,
,,,,,927339,001,2023-10-25_14h54.51.507,psychopy project,2023.2.3,Win32,60.03842459,,,,,,214.9657,215.3978,space,0.4169,,,,,,,,,,,,,stimuli/w06.bmp,stimuli/g6.bmp,,,,,,,,215.3979,216.0975,p,0.2915,,,0,107,107,71,1,,,,,,,
,,,,,927339,001,2023-10-25_14h54.51.507,psychopy project,2023.2.3,Win32,60.03842459,,,,,,216.098,216.4644,space,0.3615,,,,,,,,,,,,,stimuli/w05.bmp,stimuli/t3.bmp,,,,,,,,216.4645,217.1981,q,0.3125,,,0,108,108,106,1,,,,,,,
,,,,,927339,001,2023-10-25_14h54.51.507,psychopy project,2023.2.3,Win32,60.03842459,,,,,,217.1987,217.5477,space,0.3443,,,,,,,,,,,,,stimuli/b04.bmp,stimuli/t2.bmp,,,,,,,,217.5477,218.3305,q,0.3613,,,0,109,109,87,1,,,,,,,
,,,,,927339,001,2023-10-25_14h54.51.507,psychopy project,2023.2.3,Win32,60.03842459,,,,,,218.3308,218.6639,space,0.3202,,,,,,,,,,,,,stimuli/w04.bmp,stimuli/t2.bmp,,,,,,,,218.6639,219.3305,q,0.2385,,,0,110,110,93,1,,,,,,,
,,,,,927339,001,2023-10-25_14h54.51.507,psychopy project,2023.2.3,Win32,60.03842459,,,,,,219.3309,219.7308,space,0.3841,,,,,,,,,,,,,stimuli/b04.bmp,stimuli/g5.bmp,,,,,,,,219.7309,220.4306,p,0.2695,,,0,111,111,51,1,,,,,,,
,,,,,927339,001,2023-10-25_14h54.51.507,psychopy project,2023.2.3,Win32,60.03842459,,,,,,220.4311,220.8138,space,0.3671,,,,,,,,,,,,,stimuli/b05.bmp,stimuli/g6.bmp,,,,,,,,220.8139,221.4302,p,0.1902,,,0,112,112,64,1,,,,,,,
,,,,,927339,001,2023-10-25_14h54.51.507,psychopy project,2023.2.3,Win32,60.03842459,,,,,,221.4306,221.9302,space,0.4839,,,,,,,,,,,,,stimuli/b05.bmp,stimuli/t6.bmp,,,,,,,,221.9302,222.5301,p,0.1912,,,0,113,113,136,1,,,,,,,
,,,,,927339,001,2023-10-25_14h54.51.507,psychopy project,2023.2.3,Win32,60.03842459,,,,,,222.5304,223.1635,space,0.6208,,,,,,,,,,,,,stimuli/b03.bmp,stimuli/g3.bmp,,,,,,,,223.1635,223.7633,p,0.1773,,,0,114,114,26,1,,,,,,,
,,,,,927339,001,2023-10-25_14h54.51.507,psychopy project,2023.2.3,Win32,60.03842459,,,,,,223.7638,224.1634,space,0.3846,,,,,,,,,,,,,stimuli/b06.bmp,stimuli/t6.bmp,,,,,,,,224.1634,224.8799,q,0.284,,,0,115,115,137,1,,,,,,,
,,,,,927339,001,2023-10-25_14h54.51.507,psychopy project,2023.2.3,Win32,60.03842459,,,,,,224.8805,225.1803,space,0.2926,,,,,,,,,,,,,stimuli/b02.bmp,stimuli/t5.bmp,,,,,,,,225.1803,225.9464,q,0.3373,,,0,116,116,121,1,,,,,,,
,,,,,927339,001,2023-10-25_14h54.51.507,psychopy project,2023.2.3,Win32,60.03842459,,,,,,225.9469,226.2809,space,0.3262,,,,,,,,,,,,,stimuli/w02.bmp,stimuli/g4.bmp,,,,,,,,226.281,226.9461,p,0.2346,,,0,117,117,43,1,,,,,,,
,,,,,927339,001,2023-10-25_14h54.51.507,psychopy project,2023.2.3,Win32,60.03842459,,,,,,226.9465,227.3296,space,0.3675,,,,,,,,,,,,,stimuli/w01.bmp,stimuli/t6.bmp,,,,,,,,227.3298,228.0794,q,0.3184,,,0,118,118,138,1,,,,,,,
,,,,,927339,001,2023-10-25_14h54.51.507,psychopy project,2023.2.3,Win32,60.03842459,,,,,,228.0797,228.3127,space,0.2261,,,,,,,,,,,,,stimuli/b06.bmp,stimuli/t1.bmp,,,,,,,,228.3128,229.1126,q,0.3685,,,0,119,119,77,1,,,,,,,
,,,,,927339,001,2023-10-25_14h54.51.507,psychopy project,2023.2.3,Win32,60.03842459,,,,,,229.1131,229.496,space,0.3747,,,,,,,,,,,,,stimuli/b05.bmp,stimuli/g4.bmp,,,,,,,,229.496,230.2124,p,0.2859,,,0,120,120,40,1,,,,,,,
,,,,,927339,001,2023-10-25_14h54.51.507,psychopy project,2023.2.3,Win32,60.03842459,,,,,,230.2128,230.5487,space,0.3305,,,,,,,,,,,,,stimuli/w01.bmp,stimuli/t5.bmp,,,,,,,,230.5487,231.2622,q,0.2843,,,0,121,121,126,1,,,,,,,
,,,,,927339,001,2023-10-25_14h54.51.507,psychopy project,2023.2.3,Win32,60.03842459,,,,,,231.2627,231.6124,space,0.334,,,,,,,,,,,,,stimuli/w04.bmp,stimuli/g6.bmp,,,,,,,,231.6124,232.4788,p,0.434,,,0,122,122,69,1,,,,,,,
,,,,,927339,001,2023-10-25_14h54.51.507,psychopy project,2023.2.3,Win32,60.03842459,,,,,,232.4792,232.9463,space,0.4568,,,,,,,,,,,,,stimuli/b03.bmp,stimuli/t3.bmp,,,,,,,,232.9464,233.6785,q,0.3104,,,0,123,123,98,1,,,,,,,
,,,,,927339,001,2023-10-25_14h54.51.507,psychopy project,2023.2.3,Win32,60.03842459,,,,,,233.6791,234.0125,space,0.3178,,,,,,,,,,,,,stimuli/b06.bmp,stimuli/g5.bmp,,,,,,,,234.0125,234.6617,p,0.2226,,,0,124,124,53,1,,,,,,,
,,,,,927339,001,2023-10-25_14h54.51.507,psychopy project,2023.2.3,Win32,60.03842459,,,,,,234.6622,235.4131,space,0.7463,,,,,,,,,,,,,stimuli/b03.bmp,stimuli/g2.bmp,,,,,,,,235.4133,236.0449,p,0.2073,,,0,125,125,14,1,,,,,,,
,,,,,927339,001,2023-10-25_14h54.51.507,psychopy project,2023.2.3,Win32,60.03842459,,,,,,236.0454,236.6283,space,0.5675,,,,,,,,,,,,,stimuli/w01.bmp,stimuli/t3.bmp,,,,,,,,236.6284,237.3449,q,0.2848,,,0,126,126,102,1,,,,,,,
,,,,,927339,001,2023-10-25_14h54.51.507,psychopy project,2023.2.3,Win32,60.03842459,,,,,,237.3454,237.6955,space,0.3363,,,,,,,,,,,,,stimuli/w02.bmp,stimuli/t2.bmp,,,,,,,,237.6956,239.2782,,,,space,0,127,127,91,1,0.6534,,,,,,
,,,,,927339,001,2023-10-25_14h54.51.507,psychopy project,2023.2.3,Win32,60.03842459,,,,,,239.2787,239.8284,space,0.5369,,,,,,,,,,,,,stimuli/b06.bmp,stimuli/t3.bmp,,,,,,,,239.8286,240.4446,q,0.1907,,,0,128,128,101,1,,,,,,,
,,,,,927339,001,2023-10-25_14h54.51.507,psychopy project,2023.2.3,Win32,60.03842459,,,,,,240.4451,240.828,space,0.367,,,,,,,,,,,,,stimuli/b04.bmp,stimuli/t1.bmp,,,,,,,,240.828,241.5608,q,0.302,,,0,129,129,75,1,,,,,,,
,,,,,927339,001,2023-10-25_14h54.51.507,psychopy project,2023.2.3,Win32,60.03842459,,,,,,241.5612,241.8777,space,0.3089,,,,,,,,,,,,,stimuli/w02.bmp,stimuli/t1.bmp,,,,,,,,241.8779,242.544,q,0.2387,,,0,130,130,79,1,,,,,,,
,,,,,927339,001,2023-10-25_14h54.51.507,psychopy project,2023.2.3,Win32,60.03842459,,,,,,242.5444,242.8607,space,0.3097,,,,,,,,,,,,,stimuli/w06.bmp,stimuli/g5.bmp,,,,,,,,242.8608,243.3783,q,0.1009,,,0,131,131,59,1,,,,,,,
,,,,,927339,001,2023-10-25_14h54.51.507,psychopy project,2023.2.3,Win32,60.03842459,,,,,,243.3787,243.8107,space,0.4217,,,,,,,,,,,,,stimuli/b06.bmp,stimuli/g6.bmp,,,,,,,,243.8108,244.4272,p,0.1872,,,0,132,132,65,1,,,,,,,
,,,,,927339,001,2023-10-25_14h54.51.507,psychopy project,2023.2.3,Win32,60.03842459,,,,,,244.4276,244.8109,space,0.3772,,,,,,,,,,,,,stimuli/w04.bmp,stimuli/g4.bmp,,,,,,,,244.8109,245.4771,p,0.239,,,0,133,133,45,1,,,,,,,
,,,,,927339,001,2023-10-25_14h54.51.507,psychopy project,2023.2.3,Win32,60.03842459,,,,,,245.4775,245.8771,space,0.39,,,,,,,,,,,,,stimuli/w05.bmp,stimuli/g2.bmp,,,,,,,,245.8771,246.4769,p,0.1745,,,0,134,134,22,1,,,,,,,
,,,,,927339,001,2023-10-25_14h54.51.507,psychopy project,2023.2.3,Win32,60.03842459,,,,,,246.4773,246.9273,space,0.443,,,,,,,,,,,,,stimuli/w06.bmp,stimuli/g1.bmp,,,,,,,,246.9274,247.7267,p,0.3744,,,0,135,135,11,1,,,,,,,
,,,,,927339,001,2023-10-25_14h54.51.507,psychopy project,2023.2.3,Win32,60.03842459,,,,,,247.7271,248.177,space,0.4337,,,,,,,,,,,,,stimuli/w03.bmp,stimuli/g3.bmp,,,,,,,,248.177,248.7933,p,0.1841,,,0,136,136,32,1,,,,,,,
,,,,,927339,001,2023-10-25_14h54.51.507,psychopy project,2023.2.3,Win32,60.03842459,,,,,,248.7937,249.2767,space,0.4693,,,,,,,,,,,,,stimuli/b02.bmp,stimuli/t3.bmp,,,,,,,,249.2767,249.9764,q,0.2738,,,0,137,137,97,1,,,,,,,
,,,,,927339,001,2023-10-25_14h54.51.507,psychopy project,2023.2.3,Win32,60.03842459,,,,,,249.9769,250.4934,space,0.5043,,,,,,,,,,,,,stimuli/b01.bmp,stimuli/t5.bmp,,,,,,,,250.4936,251.2761,q,0.3507,,,0,138,138,120,1,,,,,,,
,,,,,927339,001,2023-10-25_14h54.51.507,psychopy project,2023.2.3,Win32,60.03842459,,,,,,251.2765,251.7101,space,0.4238,,,,,,,,,,,,,stimuli/w05.bmp,stimuli/t6.bmp,,,,,,,,251.7101,252.4594,q,0.3176,,,0,139,139,142,1,,,,,,,
,,,,,927339,001,2023-10-25_14h54.51.507,psychopy project,2023.2.3,Win32,60.03842459,,,,,,252.4598,252.843,space,0.3677,,,,,,,,,,,,,stimuli/b02.bmp,stimuli/g3.bmp,,,,,,,,252.8431,253.4932,p,0.2207,,,0,140,140,25,1,,,,,,,
,,,,,927339,001,2023-10-25_14h54.51.507,psychopy project,2023.2.3,Win32,60.03842459,,,,,,253.4936,254.0093,space,0.5041,,,,,,,,,,,,,stimuli/b06.bmp,stimuli/g1.bmp,,,,,,,,254.0094,254.6091,p,0.1761,,,0,141,141,5,1,,,,,,,
,,,,,927339,001,2023-10-25_14h54.51.507,psychopy project,2023.2.3,Win32,60.03842459,,,,,,254.6096,255.1428,space,0.5172,,,,,,,,,,,,,stimuli/w05.bmp,stimuli/g5.bmp,,,,,,,,255.1428,255.659,q,0.0923,,,0,142,142,58,1,,,,,,,
,,,,,927339,001,2023-10-25_14h54.51.507,psychopy project,2023.2.3,Win32,60.03842459,,,,,,255.6594,256.2924,space,0.6265,,,,,,,,,,,,,stimuli/b02.bmp,stimuli/t6.bmp,,,,,,,,256.2924,257.0087,q,0.2837,,,0,143,143,133,1,,,,,,,
,,,,,927339,001,2023-10-25_14h54.51.507,psychopy project,2023.2.3,Win32,60.03842459,,,,,,,,,,,,,,,,,,,,,,,,,,,,,,,,,,,,,,,,,,,,257.0094,258.91,space,1.8795,